File: data/pcs_3_raman_xrd.csv
,Raman PC 1,Raman PC 2,Raman PC 3,XRD PC 1,XRD PC 2,XRD PC 3
0,2.10775,-1.05533,-1.50189,-1.15874,0.00976623,-0.519384
1,-2.41434,-1.34718,-2.16085,-1.36953,-1.05534,-0.779057
2,-2.16228,-1.45056,-2.08616,-4.32084,0.569925,0.451675
3,-1.97845,-1.3459,-2.08659,4.16005,1.78638,-1.58171
4,1.49778,-1.23092,-1.58228,1.47923,1.59791,-1.34454
5,3.8311,-0.971832,-1.18203,-3.681,0.616612,0.77704
6,5.75117,-0.828827,-0.822914,-5.17953,0.407685,0.784371
7,3.46849,-1.05378,-1.22015,0.560457,0.266145,-0.149521
8,-3.29136,-1.92443,-1.39775,-1.76671,0.68561,-0.633803
9,-3.30491,-2.25783,-1.02566,-1.5988,-0.527889,0.0210988
10,-3.12218,-2.26934,-0.874227,0.0547873,1.38811,-0.5009
11,-2.73459,-2.05128,-1.13144,-2.21014,0.557215,-0.22189
12,-2.60877,-1.84308,-1.54499,-1.75509,-1.45011,-0.508201
13,-2.12071,-2.10049,-1.14752,1.70969,1.54463,-1.05661
14,-1.2765,-1.60533,-1.66334,-4.13953,1.57167,-0.665319
15,1.3776,-1.28349,-1.48813,-6.50494,0.519067,0.384274
16,4.40673,-1.01298,-1.03122,0.498551,1.7232,-0.607459
17,6.08617,-0.838226,-0.695859,-3.7312,1.97966,0.612196
18,7.11053,-0.594931,-0.4103,-4.44702,1.94404,0.231974
19,5.59418,-0.587442,-0.805952,-0.0654665,0.55807,-0.387358
20,2.69128,-1.09097,-1.36015,-1.04588,-0.796711,-0.971889
21,-3.11059,-2.15835,-1.10875,1.59352,0.200202,-1.71255
22,-4.81169,-1.35889,-0.563341,-0.399887,1.30141,-1.39398
23,-4.87595,-1.25756,-0.464538,-3.55135,0.142745,-1.18849
24,-3.78273,-1.75984,-0.588165,-3.20845,0.0591545,-0.196317
25,-3.3733,-1.91004,-0.561961,3.58182,1.29559,-1.21602
26,-1.99562,-2.22431,-0.769777,-0.898648,1.25935,0.014578
27,-1.79107,-2.02001,-1.12732,-1.45779,1.52803,-0.536476
28,-0.983647,-1.81463,-1.34664,-2.51817,1.05263,0.428129
29,2.29122,-1.2235,-1.27118,1.57909,1.34024,-1.46263
30,4.46845,-1.08786,-0.987801,-1.54653,0.930372,-0.636627
31,6.04214,-0.86704,-0.682323,-2.90001,1.63155,0.126193
32,6.95824,-0.669207,-0.45391,-4.27108,1.84299,0.117205
33,7.61985,-0.525169,-0.230123,-3.1531,2.37843,0.0560406
34,6.3816,-0.522619,-0.535725,0.749803,2.59119,-1.06329
35,-3.07389,-2.06674,-1.33317,3.04638,0.448744,-1.72433
36,-4.0167,-1.56267,-0.625981,2.29191,0.630314,-1.73346
37,-4.50479,-1.27146,-0.474036,-2.34695,-0.531505,0.476747
38,-5.07847,-0.983281,-0.319717,-1.82183,-1.68916,-0.766106
39,-3.95321,-1.45044,-0.302966,-1.6285,0.697624,-1.19084
40,-3.46579,-1.73614,-0.339365,-0.155223,-0.669454,-0.971038
41,-1.22109,-2.26933,-0.603533,-1.71331,-1.08569,-0.298154
42,-1.00799,-2.37392,-0.403081,-3.07328,0.556089,0.826162
43,0.178349,-1.87363,-1.14322,-3.56833,0.653798,0.251097
44,1.4449,-1.59117,-1.2374,-3.97305,1.37608,-0.144491
45,5.58905,-1.05514,-0.711121,-1.52357,-0.794191,-0.0462974
46,6.60636,-0.772851,-0.55387,-3.27565,0.878602,0.371867
47,7.88946,-0.557178,-0.171523,-1.71381,1.78285,-0.179898
48,7.75161,-0.432246,-0.0939232,-4.33223,0.868327,1.0355
49,7.99088,-0.329399,0.0910027,-4.42656,1.09061,1.25755
50,8.22869,0.0539768,0.514774,-0.465164,0.322811,-0.388302
51,-4.45705,-1.34089,-0.577539,0.526041,-1.30102,-1.00153
52,-5.48015,-0.702526,-0.256233,-0.797718,-0.416778,-0.86081
53,-5.55515,-0.60042,-0.150548,3.27697,0.29259,-1.24388
54,-5.11082,-0.84703,-0.180283,-0.0706649,-1.5257,-0.836804
55,-4.71408,-0.933544,-0.117009,-0.543845,0.10717,-0.212858
56,-3.92586,-1.20936,-0.0317902,-1.93954,-0.775851,-0.204048
57,-2.77108,-1.66967,-0.0696076,-4.87658,0.0276954,0.500527
58,-0.909605,-2.30045,-0.079302,-0.363641,1.556,0.260913
59,0.318025,-2.23146,0.596297,-2.99032,0.263941,0.952577
60,2.16361,-1.65714,-0.981944,0.788358,1.18993,0.278491
61,5.55447,-1.22059,-0.595818,-5.06964,1.32514,-0.403916
62,6.65158,-0.885912,-0.464046,-4.47386,1.57728,0.415444
63,7.38405,-0.662824,-0.285762,-1.12025,1.86195,0.49514
64,7.81042,-0.451072,-0.0795299,-1.96754,1.83949,0.1496
65,7.95413,-0.251267,0.118846,-4.80625,0.315912,1.19779
66,8.20896,-0.241269,0.252467,-0.233082,2.38972,-1.02826
67,8.22131,0.0788433,0.529369,5.41809,0.014167,-2.06787
68,8.22536,0.0699471,0.530368,-1.86147,-0.732732,-1.18567
69,-5.42926,-0.655307,-0.223179,1.93067,-0.340114,-1.00822
70,-5.61923,-0.451442,-0.0287278,-0.749819,-1.5241,0.732789
71,-5.11374,-0.694632,-0.00529882,0.487146,0.066597,-0.344441
72,-4.77697,-0.765597,0.0448036,0.615684,1.16107,-1.03653
73,-4.33906,-0.929087,0.0603501,1.34644,0.104633,-0.0061206
74,-2.34179,-1.556,0.0868172,-0.360149,0.614388,-0.0610021
75,-1.84121,-1.70113,0.276239,0.590343,2.25621,-1.52982
76,1.0196,-2.42205,0.252975,-3.2242,2.24237,-0.247577
77,1.79844,-2.34026,0.00190818,-0.423957,1.55488,-0.525488
78,4.32774,-1.64242,-0.412102,-1.32194,0.670201,-0.717428
79,7.57174,-0.86371,0.250502,-0.281819,1.69307,-0.565749
80,7.82162,-0.64475,-0.118879,-3.99933,1.80307,0.334757
81,7.89225,-0.476708,-0.0384346,-2.57095,1.38673,0.678732
82,8.17655,-0.34381,0.130214,-2.76739,1.85109,0.600259
83,8.27463,-0.227346,0.287764,-0.882557,1.40883,-0.31918
84,-4.15354,-1.14724,-0.307781,-2.2798,-0.92719,0.311773
85,-5.4246,-0.476467,-0.0849256,0.416097,-0.322152,-1.00611
86,-5.4982,-0.434116,0.00740975,-1.21178,-2.32802,-0.987872
87,-5.61759,-0.204752,0.263089,1.42848,-0.555629,-0.818069
88,-5.53803,-0.36605,0.115419,-1.8152,-0.164835,0.195843
89,-4.45256,-0.727341,0.178294,-1.15332,-0.775499,0.165039
90,-4.16903,-0.852705,0.256628,2.94208,1.41335,-0.767805
91,-3.67263,-0.956827,0.35131,-0.299572,1.42409,-0.304161
92,-2.67367,-1.25327,0.458416,0.580715,1.02577,-1.29031
93,0.258642,-1.99692,0.708183,-1.96404,1.17871,0.563255
94,3.14082,-2.38974,0.480122,-4.32198,1.23933,0.746896
95,6.67699,-1.42213,0.110001,0.376421,1.73643,-0.643498
96,7.62382,-1.05325,0.0474435,-0.0126037,1.14168,-0.469309
97,8.13663,-0.721919,0.119496,-3.61224,0.640885,1.69283
98,8.06597,-0.374572,0.259533,-2.60193,1.30582,0.135922
99,8.27466,-0.348023,0.192113,0.235342,1.59108,-0.58859
100,8.28031,-0.235012,0.298228,-0.0348237,2.26553,-0.596217
101,8.15454,-0.163573,0.350358,-5.50205,2.09976,1.23482
102,-3.9942,-0.870881,-0.0807878,-1.08371,-2.18444,-0.0801063
103,-4.86001,-0.520518,0.0611585,1.1995,-0.645729,-1.61417
104,-4.99609,-0.457558,0.144521,0.92381,-0.700372,-1.05869
105,-4.83057,-0.498037,0.219374,-1.33212,-0.146738,-0.371645
106,-4.8243,-0.544211,0.270785,1.45387,-0.920935,-0.695128
107,-4.56548,-0.583288,0.340919,-0.351368,0.435875,0.104531
108,-4.24855,-0.626888,0.44235,1.88701,-2.14232,-0.206827
109,-4.31295,-0.638033,0.520513,0.207551,0.647114,-0.720956
110,-3.24357,-0.931211,0.690955,1.86315,0.75177,-0.890974
111,-1.89967,-1.34528,0.899756,3.18362,0.605312,-1.04688
112,0.600528,-1.85326,1.1481,-3.64684,0.791856,0.27332
113,4.63868,-1.64894,0.807291,-3.02207,1.96003,-0.372799
114,5.45054,-0.882487,0.50527,-2.9066,1.01315,0.788979
115,7.80374,-0.577409,0.333866,-2.70377,0.955454,-0.382114
116,8.36017,-0.39429,0.309731,-3.0376,1.71559,0.184432
117,8.41002,-0.293307,0.334258,-2.10558,1.6582,-0.0639771
118,8.36364,-0.216538,0.351467,-3.58416,0.94315,-0.509663
119,8.03838,-0.0809595,0.286847,0.516522,2.13022,-1.26596
120,-4.46262,-0.615665,0.087216,2.23716,0.271424,-1.03103
121,-5.27615,-0.305298,0.170065,2.73376,-0.434576,-1.24711
122,-5.24176,-0.285885,0.216243,0.421537,-1.47275,-1.15428
123,-5.08612,-0.327099,0.340246,-0.0193594,-0.675405,-0.169501
124,-4.97072,-0.353881,0.354071,-2.43274,-0.722653,0.797309
125,-4.98727,-0.339685,0.461693,-1.30371,-0.0950263,0.404428
126,-5.10374,-0.264969,0.497697,3.22175,0.3506,-1.88993
127,-4.56297,-0.384259,0.665822,-2.25778,-0.112884,-0.35805
128,-4.41457,-0.485148,0.737063,-0.0661768,1.41331,-0.317935
129,-3.16162,-0.797286,0.921471,-3.71021,1.03776,0.687534
130,-1.34103,-1.32848,1.19036,-0.623889,0.792892,-0.737979
131,0.773897,-1.58956,1.52265,-0.908186,1.70875,0.699186
132,3.27798,-0.827485,1.06808,0.236131,0.151621,-0.67998
133,6.97724,-0.400637,0.586655,-1.03283,0.818268,1.05104
134,7.91586,-0.308886,0.522291,-2.53226,1.43271,-0.158507
135,8.33457,-0.218313,0.485723,-5.1978,-0.126705,0.492543
136,8.36672,-0.136638,0.414731,-0.0181128,1.88889,0.550229
137,8.3513,-0.0566413,0.46333,-5.48544,0.984428,0.559291
138,-6.49619,0.162478,0.106038,-0.939637,-1.53409,0.448704
139,-5.93816,0.0759873,0.277369,-1.61001,-2.02108,-0.129087
140,-5.98972,0.0627835,0.262751,3.3429,0.130011,-0.805096
141,-6.35367,0.32841,0.34886,3.1669,0.520644,-0.867793
142,-5.83252,0.0233949,0.36272,0.413979,0.473326,-1.40059
143,-5.41482,-0.120108,0.500485,0.641482,-1.10336,-0.268252
144,-5.38043,-0.183243,0.583015,-4.21905,-1.71918,-0.400299
145,-5.43728,-0.169293,0.678612,-0.594086,-1.55173,-0.763532
146,-4.35134,-0.432387,0.853228,0.558127,-1.58326,-0.19145
147,-4.37533,-0.287762,0.923823,-1.72453,0.67471,-0.00950464
148,-4.38932,-0.314272,0.947407,-2.8111,0.238274,1.45064
149,-0.987819,-1.00656,1.84272,-3.19261,0.781937,0.789365
150,0.284191,0.0673136,1.93454,-0.0990573,0.297132,-0.218768
151,4.48151,0.313811,1.02702,-2.05476,1.40249,-1.18079
152,7.58329,-0.0715095,0.661272,-3.09959,1.05754,-0.0755336
153,7.00652,0.0616746,0.736734,-6.42671,0.557693,-0.161176
154,7.99972,-0.00237467,0.672419,-0.714893,2.4587,-0.330753
155,8.31311,-0.0388319,0.656409,-3.06744,1.83887,0.928114
156,-4.71335,-0.294343,0.305607,2.05377,-1.01444,-1.22654
157,-5.33562,-0.0760715,0.311781,0.307107,-2.11384,-0.201827
158,-5.43341,-0.0543945,0.39175,4.74152,-0.365632,-2.1006
159,-5.88523,0.144743,0.336136,-2.1457,-1.50468,-0.454206
160,-5.26454,-0.0529629,0.529253,0.637532,-1.39508,0.403479
161,-5.43285,0.0870666,0.714966,-2.23804,-0.708968,-0.583292
162,-5.17602,-0.103687,0.695009,1.17974,-2.18397,-0.268239
163,-5.01373,-0.106788,0.825796,-2.07516,-3.50828,0.971877
164,-3.25968,-0.324805,1.2849,3.63306,0.621879,-1.64204
165,-2.44048,0.210204,2.17927,1.16505,-0.278251,0.0922255
166,-2.52175,-0.133913,1.8756,-1.68485,-0.909047,-0.978982
167,-1.4715,0.804029,1.28784,-1.82837,-1.19438,1.87519
168,0.234386,0.834263,0.998397,-0.00779451,1.61864,-1.01625
169,0.00302857,1.03539,1.04451,0.372729,-0.0474735,-0.730345
170,6.49673,0.419335,0.764186,-3.68038,-0.495302,1.45408
171,6.56966,0.292231,0.656512,2.73623,0.905056,-0.906015
172,7.45106,0.338993,0.727442,-1.68235,1.48058,0.49271
173,8.08204,0.153378,0.701039,-4.26603,1.86986,0.154411
174,-3.62812,-0.440393,0.47129,-0.154476,-1.93208,-0.964014
175,-5.92526,0.191394,0.316944,-0.965539,-1.99532,-0.287656
176,-5.62844,0.122603,0.409599,4.63437,-0.730594,-1.59246
177,-5.74947,0.180297,0.436534,1.356,-2.591,-0.170335
178,-5.06111,-0.00794387,0.632956,0.131508,-2.66465,0.782005
179,-4.66664,-0.0535522,0.793841,-0.336092,-1.22609,-0.131149
180,-4.32535,0.000318269,1.05365,3.70408,-1.54005,-0.586621
181,-4.79026,0.281285,1.17061,-1.39921,-1.2327,0.0513465
182,-5.23462,0.542288,1.25513,0.442363,-1.98153,-0.572093
183,-1.59508,1.08744,1.94234,0.00224811,-0.361266,-0.536196
184,-2.08663,2.24176,0.215433,5.50765,0.19978,-1.50637
185,-0.559896,2.43671,0.443868,1.99581,0.371895,-1.02295
186,-1.38188,2.57561,0.621899,4.11751,0.627282,-0.84347
187,3.76006,1.51508,0.633009,-6.79244,-0.524373,0.811496
188,5.68982,0.804938,0.554063,1.1831,-0.0934365,-0.0883664
189,6.30238,0.839094,0.719009,3.57516,1.59963,-0.779337
190,6.83668,0.623494,0.747577,-4.75547,0.77002,1.15285
191,-4.45457,-0.118549,0.500014,2.57531,0.1615,-0.826321
192,-5.58589,0.170311,0.442104,1.35759,-1.35837,-0.738037
193,-4.99356,-0.0103338,0.592143,1.90625,-1.64806,0.0458546
194,-4.75919,0.0134082,0.736855,-2.9514,-2.41384,1.04465
195,-4.15123,0.230949,1.06462,1.77936,-2.43002,-1.01141
196,-5.80814,0.816552,0.752887,0.452492,-3.02204,-0.0965736
197,1.2267,2.31412,0.786209,2.35194,-2.49753,0.417893
198,-0.0937032,2.47085,0.341445,0.883817,-1.92686,0.221182
199,-0.0371946,2.68901,0.0337385,3.28114,-0.333658,-0.589036
200,3.03769,1.76871,-0.0223459,5.79227,0.313307,-1.82282
201,1.49079,2.18229,-0.238534,-0.245738,-1.26294,0.634482
202,1.12247,2.20207,-0.398759,1.54147,0.404241,-0.758827
203,0.0671578,2.43353,-0.554847,2.13871,0.147628,-0.677701
204,0.763227,2.0293,-0.315046,0.916555,0.903451,0.589426
205,2.5391,2.00301,-0.0847118,-3.1026,0.00756053,1.35745
206,3.78383,1.71023,0.224661,0.998469,1.78726,-1.02646
207,4.562,1.23752,0.896711,-6.82553,0.0481946,1.12198
208,-4.83829,-0.00360424,0.608346,1.27451,-2.71283,0.663937
209,-3.22621,-0.0456312,1.03256,1.90208,-2.73575,-0.272275
210,-2.56797,1.07925,1.02382,0.746386,-2.7672,0.0407407
211,-1.51612,1.87538,0.0511231,3.18193,-3.13508,-0.77132
212,-2.7245,2.86375,-0.939887,5.29793,-2.67993,0.0277551
213,-0.234996,2.2961,-0.824183,2.83237,-3.29958,0.654194
214,1.86466,2.13879,-0.437687,0.00467989,-3.17708,0.543327
215,0.547182,2.35114,-0.623863,-0.00995529,-2.54033,-0.247203
216,1.55126,2.42372,-0.0941179,-0.584029,-3.6799,1.06003
217,1.34122,2.17745,-0.809105,-0.977896,-1.06418,-0.279679
218,-1.56999,2.26809,-0.787011,-0.509405,-1.87905,0.0895164
219,-2.39054,2.57423,-0.658408,0.374814,-0.241925,0.142887
220,0.0305945,2.05951,-0.558559,0.681837,-0.391652,0.0899703
221,-1.64059,2.10368,-0.298271,-2.6341,-0.822767,1.31577
222,-1.90962,2.3326,-0.707246,-0.57461,0.498769,-0.302738
223,-0.575129,2.25639,-0.307497,3.50902,-3.27008,0.909208
224,5.20255,1.24861,0.21907,3.75897,-2.32339,-0.0588764
225,3.17049,1.51076,-0.28528,4.43933,-2.65896,-0.347852
226,1.08818,2.10208,-0.720122,1.83773,-3.49152,0.412557
227,0.440593,2.26399,-0.81086,4.17299,-4.00288,0.0919805
228,-2.59848,2.47833,-0.926071,2.76509,-3.21314,0.391277
229,-2.70431,1.77795,-0.612376,1.59612,-3.07678,1.11058
230,-0.458335,2.31933,-0.765581,4.48266,-1.62115,0.0874994
231,1.36366,2.16674,-0.626336,1.68889,-2.33977,0.59
232,-3.72749,2.48093,-0.983247,2.19392,-1.26997,1.09164
233,0.0587786,2.16808,-0.619244,0.0844827,-2.34535,0.451733
234,-2.11449,2.44172,-0.975337,0.634061,-0.388729,-0.0715679
235,-0.763207,2.1367,-0.61585,6.44092,-0.0115142,-1.15274
236,2.90165,1.83682,-0.635926,3.25799,-2.90543,1.48
237,1.99554,1.72864,-0.478822,5.12184,-2.96066,0.706334
238,-2.0198,2.33603,-0.970089,-0.801397,-3.62103,2.20972
239,-1.59585,2.39153,-1.19775,-1.24404,-2.47962,2.94956
240,-1.84726,2.34083,-0.819224,3.70974,-1.87743,1.38549
241,3.30478,1.43941,-0.143413,2.84099,-2.07349,2.30976
242,-0.418449,2.17882,-0.372655,-0.138627,-1.31023,1.41349
243,-2.80321,2.30216,-0.691744,-0.0958986,-0.37003,2.3069
244,0.445833,1.9172,-0.338962,-0.549315,-1.80439,1.81196
245,-1.92812,2.47207,-0.756732,-0.489867,-1.59342,1.95013
246,-3.84409,2.54431,-0.71456,2.74533,-0.523895,0.582665
247,-0.769724,1.99356,-0.745967,2.802,0.873398,3.68894
248,-0.189307,2.32215,-0.720587,6.6416,1.82743,3.17079
249,0.10939,1.89577,-0.548315,6.72676,1.15548,3.1726
250,-2.76425,2.61469,-1.16294,9.19885,2.58396,2.48589
251,-4.25683,2.77342,-0.964615,8.49122,2.06514,2.02912
252,-2.91724,2.52982,-0.808868,7.25177,2.48001,3.20397
253,0.721964,1.86984,-0.124347,6.98035,1.74476,2.67875
254,-2.13774,2.27895,-0.850187,3.61841,2.14774,3.38587
255,2.76517,1.56233,-0.110421,3.97674,2.86762,2.1648
256,1.82334,0.0707258,1.3721,14.6486,4.82983,1.44054
257,-0.108402,0.0393522,1.38677,13.4336,4.72723,2.0189
258,3.17331,0.288446,1.06823,13.7934,4.57792,1.66161